File: data/202003_Sydney_TGA_NoExpiry.txt
03/02/2020,00:30,.125,.125,.125,.125, 218662
03/02/2020,00:31,.12,.12,.12,.12, 20000
03/02/2020,00:34,.11,.11,.11,.11, 50000
03/02/2020,00:34,.115,.115,.115,.115, 8704
03/02/2020,00:35,.11,.11,.11,.11, 8257
03/02/2020,00:38,.105,.105,.1,.1, 100000
03/02/2020,00:39,.105,.11,.105,.11, 55000
03/02/2020,00:41,.11,.11,.11,.11, 13484
03/02/2020,00:42,.11,.11,.11,.11, 1050
03/02/2020,00:47,.115,.115,.115,.115, 50000
03/02/2020,00:53,.11,.11,.11,.11, 69405
03/02/2020,00:56,.11,.11,.11,.11, 23344
03/02/2020,01:09,.11,.11,.11,.11, 6000
03/02/2020,01:14,.11,.11,.11,.11, 161484
03/02/2020,01:17,.105,.105,.105,.105, 10000
03/02/2020,01:21,.11,.11,.11,.11, 40000
03/02/2020,01:30,.11,.11,.105,.105, 90000
03/02/2020,01:34,.105,.105,.105,.105, 5265
03/02/2020,01:36,.11,.115,.11,.115, 23796
03/02/2020,01:49,.115,.115,.115,.115, 30018
03/02/2020,02:01,.11,.11,.11,.11, 84999
03/02/2020,02:14,.11,.11,.11,.11, 32001
03/02/2020,02:17,.105,.105,.105,.105, 1880
03/02/2020,02:23,.105,.105,.105,.105, 69982
03/02/2020,02:24,.107,.107,.107,.107, 15000
03/02/2020,02:46,.105,.105,.105,.105, 7000
03/02/2020,02:56,.105,.105,.105,.105, 10000
03/02/2020,03:05,.11,.11,.11,.11, 95478
03/02/2020,03:06,.11,.11,.11,.11, 3434
03/02/2020,03:33,.115,.115,.115,.115, 34100
03/02/2020,03:37,.115,.115,.115,.115, 74537
03/02/2020,03:39,.117,.117,.117,.117, 10000
03/02/2020,03:48,.115,.115,.115,.115, 7000
03/02/2020,03:52,.115,.115,.115,.115, 2943
03/02/2020,03:55,.117,.12,.117,.12, 184145
03/02/2020,04:01,.125,.125,.125,.125, 230978
03/02/2020,04:02,.13,.13,.13,.13, 9682
03/02/2020,04:03,.13,.135,.13,.135, 54824
03/02/2020,04:09,.14,.14,.14,.14, 2000
03/02/2020,04:11,.145,.145,.145,.145, 2000
03/02/2020,04:16,.14,.14,.14,.14, 71145
03/02/2020,04:27,.14,.14,.14,.14, 45000
03/02/2020,04:38,.14,.14,.14,.14, 147319
03/02/2020,04:41,.14,.14,.14,.14, 10000
03/02/2020,04:53,.14,.14,.14,.14, 90000
03/02/2020,04:54,.14,.14,.14,.14, 50000
03/02/2020,04:57,.13,.13,.13,.13, 100000
03/02/2020,05:24,.132,.135,.132,.135, 52340
03/02/2020,05:25,.135,.135,.135,.135, 11625
03/02/2020,05:32,.135,.135,.13,.13, 5432
03/02/2020,05:34,.13,.13,.13,.13, 4183
03/02/2020,05:41,.135,.135,.135,.135, 5750
03/02/2020,05:53,.135,.135,.135,.135, 24250
03/02/2020,05:54,.135,.135,.135,.135, 17830
03/02/2020,05:57,.13,.13,.125,.125, 150043
03/02/2020,06:11,.12,.12,.115,.12, 114492
03/02/2020,06:16,.115,.115,.115,.115, 19926
03/02/2020,06:20,.11,.115,.11,.115, 84674
03/02/2020,06:31,.12,.12,.12,.12, 50251
03/03/2020,00:30,.13,.13,.13,.13, 61484
03/03/2020,00:35,.12,.12,.12,.12, 75429
03/03/2020,00:39,.115,.115,.115,.115, 5450
03/03/2020,00:43,.125,.125,.125,.125, 60119
03/03/2020,01:28,.12,.12,.12,.12, 2500
03/03/2020,01:35,.125,.125,.125,.125, 472
03/03/2020,02:04,.125,.125,.125,.125, 10000
03/03/2020,02:16,.12,.12,.12,.12, 564
03/03/2020,02:21,.12,.12,.12,.12, 1436
03/03/2020,02:24,.12,.12,.12,.12, 4014
03/03/2020,02:53,.12,.12,.12,.12, 102015
03/03/2020,02:56,.125,.125,.125,.125, 7420
03/03/2020,03:52,.125,.125,.125,.125, 42970
03/03/2020,04:47,.125,.125,.125,.125, 20000
03/03/2020,04:47,.125,.125,.125,.125, 39467
03/03/2020,04:58,.125,.125,.125,.125, 64791
03/03/2020,04:59,.125,.125,.125,.125, 45000
03/03/2020,05:00,.125,.125,.125,.125, 35232
03/03/2020,06:19,.12,.12,.12,.12, 15503
03/03/2020,06:20,.12,.12,.12,.12, 1072
03/03/2020,06:20,.12,.12,.12,.12, 204
03/04/2020,00:32,.12,.12,.12,.12, 45288
03/04/2020,00:33,.12,.12,.12,.12, 39587
03/04/2020,00:33,.12,.12,.12,.12, 48209
03/04/2020,00:37,.12,.12,.12,.12, 50000
03/04/2020,00:37,.12,.12,.12,.12, 6147
03/04/2020,01:43,.12,.12,.12,.12, 10982
03/04/2020,01:46,.12,.12,.12,.12, 22417
03/04/2020,01:47,.12,.12,.12,.12, 162196
03/04/2020,01:56,.12,.12,.12,.12, 637
03/04/2020,01:58,.12,.12,.12,.12, 74549
03/04/2020,02:10,.12,.12,.12,.12, 100371
03/04/2020,02:18,.12,.12,.12,.12, 1057
03/04/2020,02:34,.12,.12,.12,.12, 712
03/04/2020,02:39,.12,.12,.12,.12, 20000
03/04/2020,02:40,.12,.12,.12,.12, 69870
03/04/2020,02:43,.117,.117,.117,.117, 17400
03/04/2020,02:59,.12,.12,.12,.12, 1074
03/04/2020,03:24,.12,.12,.12,.12, 132287
03/04/2020,03:30,.125,.125,.125,.125, 1237
03/04/2020,03:59,.125,.125,.125,.125, 1065
03/04/2020,04:29,.125,.125,.125,.125, 1109
03/04/2020,04:43,.125,.125,.125,.125, 551
03/04/2020,05:11,.125,.125,.125,.125, 1168
03/04/2020,05:13,.12,.12,.12,.12, 2949
03/04/2020,05:14,.12,.12,.12,.12, 4092
03/04/2020,05:24,.117,.117,.117,.117, 32600
03/04/2020,05:27,.117,.117,.117,.117, 17400
03/04/2020,05:31,.117,.117,.117,.117, 50000
03/04/2020,05:32,.117,.117,.117,.117, 85700
03/04/2020,05:32,.117,.117,.117,.117, 21900
03/04/2020,05:40,.117,.117,.117,.117, 128
03/04/2020,05:43,.117,.117,.117,.117, 125
03/04/2020,05:46,.117,.117,.117,.117, 129
03/04/2020,05:48,.117,.117,.117,.117, 128
03/04/2020,05:51,.117,.117,.117,.117, 127
03/04/2020,05:53,.117,.117,.117,.117, 130
03/04/2020,05:55,.117,.117,.117,.117, 125
03/04/2020,05:58,.117,.117,.117,.117, 126
03/04/2020,05:59,.115,.115,.115,.115, 5259
03/04/2020,06:15,.11,.11,.11,.11, 60510
03/04/2020,06:19,.11,.11,.11,.11, 126
03/04/2020,06:20,.11,.11,.11,.11, 4156
03/04/2020,06:32,.11,.11,.11,.11, 10308
03/05/2020,00:30,.115,.115,.115,.115, 6731
03/05/2020,00:37,.12,.12,.12,.12, 40919
03/05/2020,00:38,.12,.12,.12,.12, 53881
03/05/2020,00:47,.12,.12,.12,.12, 50000
03/05/2020,00:50,.12,.12,.12,.12, 8155
03/05/2020,01:43,.12,.12,.12,.12, 18600
03/05/2020,01:46,.12,.12,.12,.12, 2170
03/05/2020,01:50,.12,.12,.12,.12, 29962
03/05/2020,02:03,.12,.12,.12,.12, 115000
03/05/2020,02:06,.12,.12,.12,.12, 55000
03/05/2020,02:10,.12,.12,.12,.12, 38
03/05/2020,02:12,.12,.125,.12,.125, 133587
03/05/2020,02:17,.12,.12,.115,.115, 152477
03/05/2020,02:17,.117,.117,.117,.117, 25072
03/05/2020,02:21,.117,.117,.117,.117, 9485
03/05/2020,02:37,.12,.12,.12,.12, 1000
03/05/2020,02:40,.117,.117,.117,.117, 15000
03/05/2020,03:25,.117,.117,.117,.117, 1988
03/05/2020,03:38,.117,.117,.117,.117, 10250
03/05/2020,04:25,.117,.117,.117,.117, 6800
03/05/2020,04:30,.117,.117,.117,.117, 31405
03/05/2020,04:37,.115,.115,.115,.115, 23500
03/05/2020,04:42,.115,.115,.115,.115, 11500
03/05/2020,05:08,.115,.115,.115,.115, 10350
03/05/2020,05:35,.115,.115,.115,.115, 39670
03/05/2020,05:36,.115,.115,.115,.115, 4980
03/05/2020,05:54,.11,.11,.11,.11, 6932
03/05/2020,05:55,.11,.11,.11,.11, 11661
03/05/2020,06:16,.11,.11,.11,.11, 5818
03/05/2020,06:20,.11,.11,.11,.11, 12000
03/06/2020,00:29,.11,.11,.11,.11, 100000
03/06/2020,00:55,.115,.115,.115,.115, 4538
03/06/2020,01:30,.115,.115,.115,.115, 11900
03/06/2020,01:38,.115,.115,.115,.115, 3850
03/06/2020,01:42,.115,.115,.115,.115, 1999
03/06/2020,02:00,.115,.115,.115,.115, 2120
03/06/2020,02:07,.115,.115,.115,.115, 22710
03/06/2020,02:18,.115,.115,.115,.115, 8101
03/06/2020,02:24,.115,.115,.115,.115, 4999
03/06/2020,02:30,.115,.115,.115,.115, 11999
03/06/2020,02:33,.115,.115,.115,.115, 7445
03/06/2020,02:38,.115,.115,.115,.115, 40000
03/06/2020,02:44,.115,.115,.115,.115, 14100
03/06/2020,02:46,.115,.115,.115,.115, 33392
03/06/2020,03:04,.115,.115,.115,.115, 2599
03/06/2020,03:13,.115,.115,.115,.115, 2911
03/06/2020,03:15,.115,.115,.115,.115, 44490
03/06/2020,03:16,.115,.115,.115,.115, 65410
03/06/2020,05:41,.11,.11,.105,.105, 41178
03/06/2020,06:01,.11,.11,.11,.11, 27573
03/06/2020,06:17,.11,.11,.099,.099, 922179
03/06/2020,06:31,.099,.099,.099,.099, 852634
03/09/2020,00:38,.093,.093,.093,.093, 3554
03/09/2020,01:07,.094,.094,.093,.093, 123233
03/09/2020,01:43,.092,.092,.092,.092, 2500
03/09/2020,02:02,.094,.094,.094,.094, 3000
03/09/2020,02:05,.094,.094,.093,.094, 100613
03/09/2020,02:26,.094,.094,.094,.094, 15000
03/09/2020,02:37,.093,.093,.093,.093, 1207
03/09/2020,02:43,.093,.094,.093,.094, 77524
03/09/2020,02:54,.093,.093,.093,.093, 620
03/09/2020,02:57,.093,.093,.093,.093, 11429
03/09/2020,03:12,.093,.093,.093,.093, 2107
03/09/2020,03:16,.093,.093,.093,.093, 551
03/09/2020,03:35,.093,.093,.093,.093, 613
03/09/2020,04:04,.093,.093,.091,.091, 575632
03/09/2020,04:06,.09,.09,.089,.089, 210750
03/09/2020,04:49,.093,.093,.093,.093, 13214
03/09/2020,04:53,.093,.093,.093,.093, 24784
03/09/2020,05:32,.093,.095,.093,.095, 255189
03/09/2020,05:33,.096,.096,.096,.096, 50000
03/09/2020,05:33,.095,.095,.095,.095, 178904
03/09/2020,05:41,.095,.095,.095,.095, 51000
03/09/2020,05:48,.095,.095,.095,.095, 10000
03/09/2020,05:55,.095,.095,.095,.095, 7000
03/09/2020,06:02,.095,.096,.095,.096, 22000
03/09/2020,06:09,.09,.09,.09,.09, 78961
03/09/2020,06:19,.09,.09,.09,.09, 120000
03/09/2020,06:31,.089,.089,.089,.089, 200000
03/10/2020,00:30,.089,.089,.089,.089, 101491
03/10/2020,01:02,.089,.089,.089,.089, 18287
03/10/2020,01:07,.089,.089,.089,.089, 15000
03/10/2020,01:22,.089,.089,.088,.088, 52913
03/10/2020,01:27,.089,.089,.089,.089, 52546
03/10/2020,01:41,.089,.089,.089,.089, 197626
03/10/2020,01:44,.088,.088,.088,.088, 27873
03/10/2020,02:17,.088,.088,.088,.088, 75000
03/10/2020,02:38,.089,.089,.089,.089, 14500
03/10/2020,02:55,.089,.089,.089,.089, 287679
03/10/2020,03:10,.089,.089,.089,.089, 2244
03/10/2020,03:17,.088,.088,.088,.088, 9389
03/10/2020,03:54,.089,.089,.089,.089, 82445
03/10/2020,03:56,.089,.089,.089,.089, 117555
03/10/2020,04:49,.09,.09,.09,.09, 7238
03/10/2020,05:08,.09,.09,.09,.09, 1750
03/10/2020,05:38,.09,.09,.09,.09, 17060
03/10/2020,05:43,.088,.088,.088,.088, 21000
03/10/2020,06:12,.09,.09,.09,.09, 18287
03/10/2020,06:32,.088,.088,.088,.088, 280000
03/11/2020,00:30,.089,.089,.089,.089, 16000
03/11/2020,00:37,.095,.095,.095,.095, 61111
03/11/2020,00:40,.095,.095,.095,.095, 8889
03/11/2020,01:02,.096,.096,.096,.096, 13960
03/11/2020,01:03,.095,.095,.095,.095, 33040
03/11/2020,01:18,.095,.095,.095,.095, 3163
03/11/2020,01:24,.095,.095,.095,.095, 1
03/11/2020,01:30,.099,.099,.099,.099, 2000
03/11/2020,02:14,.095,.095,.095,.095, 4907
03/11/2020,02:22,.09,.09,.09,.09, 14827
03/11/2020,02:26,.085,.085,.085,.085, 5093
03/11/2020,02:35,.09,.09,.09,.09, 9173
03/11/2020,02:38,.089,.089,.087,.087, 178907
03/11/2020,02:51,.088,.088,.088,.088, 200000
03/11/2020,02:53,.088,.088,.088,.088, 240000
03/11/2020,03:00,.088,.088,.088,.088, 370000
03/11/2020,03:03,.088,.088,.088,.088, 190000
03/11/2020,03:19,.088,.088,.088,.088, 100000
03/11/2020,04:45,.088,.088,.088,.088, 14458
03/11/2020,04:49,.088,.088,.087,.087, 75000
03/11/2020,05:08,.088,.088,.088,.088, 47329
03/11/2020,06:15,.087,.087,.087,.087, 1950
03/12/2020,00:35,.082,.082,.082,.082, 30000
03/12/2020,01:39,.082,.082,.082,.082, 38837
03/12/2020,02:29,.082,.082,.082,.082, 32000
03/12/2020,02:59,.091,.094,.091,.094, 10404
03/12/2020,03:20,.09,.09,.09,.09, 23000
03/12/2020,03:38,.084,.084,.084,.084, 635
03/12/2020,03:51,.084,.084,.083,.083, 100000
03/12/2020,04:07,.084,.084,.084,.084, 50000
03/12/2020,04:11,.084,.084,.084,.084, 50000
03/12/2020,04:11,.083,.083,.083,.083, 7365
03/12/2020,04:27,.082,.082,.082,.082, 2000
03/12/2020,05:21,.082,.082,.082,.082, 40599
03/12/2020,05:50,.082,.082,.082,.082, 206193
03/12/2020,06:00,.082,.082,.082,.082, 200000
03/12/2020,06:04,.082,.082,.08,.08, 360000
03/12/2020,06:10,.08,.08,.08,.08, 101756
03/13/2020,00:43,.081,.081,.08,.08, 27000
03/13/2020,01:44,.076,.076,.075,.075, 80000
03/13/2020,02:29,.075,.075,.075,.075, 21000
03/13/2020,03:26,.076,.076,.076,.076, 5458
03/13/2020,03:51,.076,.076,.07,.07, 497583
03/13/2020,03:51,.07,.07,.07,.07, 2417
03/13/2020,04:11,.07,.07,.07,.07, 200000
03/13/2020,04:49,.071,.071,.071,.071, 3516
03/13/2020,05:03,.071,.071,.071,.071, 26484
03/13/2020,05:29,.069,.069,.069,.069, 5000
03/13/2020,05:41,.07,.071,.07,.071, 245684
03/13/2020,05:50,.071,.071,.071,.071, 77832
03/13/2020,06:13,.072,.072,.07,.07, 300000
03/16/2020,00:30,.08,.08,.08,.08, 100000
03/16/2020,00:46,.079,.08,.079,.08, 10000
03/16/2020,00:52,.071,.071,.068,.068, 281871
03/16/2020,01:11,.07,.07,.07,.07, 21428
03/16/2020,02:28,.07,.07,.07,.07, 96000
03/16/2020,02:36,.07,.07,.07,.07, 22299
03/16/2020,02:57,.07,.07,.07,.07, 40000
03/16/2020,02:59,.065,.065,.065,.065, 280000
03/16/2020,03:14,.065,.067,.065,.067, 20224
03/16/2020,03:15,.069,.069,.069,.069, 2130
03/16/2020,03:16,.07,.07,.07,.07, 40000
03/16/2020,03:22,.062,.062,.06,.06, 252000
03/16/2020,03:23,.059,.059,.058,.059, 156000
03/16/2020,03:59,.059,.059,.059,.059, 4000
03/16/2020,04:13,.059,.06,.059,.06, 279700
03/16/2020,04:18,.06,.06,.06,.06, 26600
03/16/2020,04:21,.059,.06,.059,.06, 86558
03/16/2020,04:22,.06,.06,.06,.06, 33929
03/16/2020,04:32,.06,.06,.06,.06, 3747
03/16/2020,05:12,.06,.06,.06,.06, 26000
03/16/2020,05:18,.06,.06,.06,.06, 4000
03/17/2020,00:39,.068,.07,.068,.07, 50000
03/17/2020,02:39,.057,.057,.057,.057, 1933
03/17/2020,03:34,.057,.057,.057,.057, 33727
03/17/2020,03:52,.056,.056,.056,.056, 19999
03/17/2020,03:59,.056,.056,.054,.054, 191999
03/17/2020,04:23,.054,.054,.05,.05, 500000
03/17/2020,05:23,.06,.06,.06,.06, 5545
03/17/2020,05:32,.06,.06,.06,.06, 813
03/17/2020,05:48,.059,.059,.059,.059, 2000
03/17/2020,05:57,.055,.055,.055,.055, 14377
03/17/2020,06:08,.057,.057,.057,.057, 882
03/17/2020,06:14,.056,.056,.056,.056, 578
03/17/2020,06:14,.055,.055,.055,.055, 10000
03/17/2020,06:18,.056,.056,.056,.056, 319
03/17/2020,06:19,.056,.056,.056,.056, 61
03/17/2020,06:31,.053,.053,.053,.053, 112000
03/18/2020,00:30,.053,.053,.053,.053, 837037
03/18/2020,00:35,.052,.052,.052,.052, 6500
03/18/2020,00:39,.052,.052,.05,.05, 534327
03/18/2020,00:43,.05,.05,.05,.05, 150000
03/18/2020,01:00,.046,.046,.046,.046, 20000
03/18/2020,01:13,.048,.048,.048,.048, 1526
03/18/2020,01:18,.048,.048,.048,.048, 348474
03/18/2020,01:31,.048,.048,.048,.048, 4
03/18/2020,02:00,.048,.048,.048,.048, 4
03/18/2020,02:03,.048,.048,.047,.047, 514996
03/18/2020,02:05,.048,.048,.048,.048, 4
03/18/2020,02:10,.048,.048,.048,.048, 150004
03/18/2020,02:12,.048,.048,.048,.048, 399992
03/18/2020,03:06,.048,.048,.048,.048, 50000
03/18/2020,03:09,.047,.047,.047,.047, 15000
03/18/2020,03:20,.047,.048,.047,.048, 319149
03/18/2020,03:21,.048,.048,.045,.045, 875000
03/18/2020,03:34,.048,.048,.048,.048, 199
03/18/2020,03:35,.045,.045,.045,.045, 302135
03/18/2020,03:49,.045,.045,.045,.045, 197865
03/18/2020,03:51,.045,.045,.045,.045, 12000
03/18/2020,04:02,.044,.044,.044,.044, 2199
03/18/2020,04:28,.045,.045,.044,.044, 49053
03/18/2020,04:34,.045,.045,.045,.045, 52203
03/18/2020,04:42,.045,.045,.045,.045, 1131
03/18/2020,05:05,.045,.045,.045,.045, 85000
03/18/2020,05:06,.045,.045,.045,.045, 1165
03/18/2020,05:22,.045,.045,.045,.045, 1155
03/18/2020,05:25,.044,.044,.044,.044, 14929
03/18/2020,05:27,.044,.044,.044,.044, 15863
03/18/2020,05:29,.044,.044,.044,.044, 17348
03/18/2020,05:31,.044,.044,.044,.044, 15135
03/18/2020,05:33,.044,.044,.044,.044, 16872
03/18/2020,05:35,.044,.044,.044,.044, 42533
03/18/2020,05:36,.043,.043,.043,.043, 15185
03/18/2020,05:38,.043,.043,.043,.043, 16189
03/18/2020,05:40,.043,.043,.043,.043, 15112
03/18/2020,05:42,.043,.043,.043,.043, 16592
03/18/2020,05:44,.043,.043,.043,.043, 14571
03/18/2020,05:46,.043,.043,.043,.043, 103151
03/18/2020,05:46,.043,.043,.043,.043, 36392
03/18/2020,05:47,.042,.042,.042,.042, 14288
03/18/2020,05:49,.043,.043,.043,.043, 57480
03/18/2020,05:50,.042,.042,.042,.042, 14506
03/18/2020,05:51,.042,.042,.042,.042, 15041
03/18/2020,05:53,.042,.042,.042,.042, 17314
03/18/2020,05:55,.043,.043,.043,.043, 15625
03/18/2020,05:57,.043,.043,.043,.043, 14942
03/18/2020,05:59,.043,.043,.042,.042, 14968
03/18/2020,06:00,.042,.042,.042,.042, 16239
03/18/2020,06:02,.042,.042,.042,.042, 17191
03/18/2020,06:04,.042,.042,.042,.042, 6386
03/18/2020,06:06,.041,.041,.041,.041, 186393
03/18/2020,06:07,.041,.041,.041,.041, 17278
03/18/2020,06:09,.041,.041,.041,.041, 20212
03/18/2020,06:11,.041,.041,.041,.041, 16084
03/18/2020,06:12,.041,.041,.041,.041, 9823
03/18/2020,06:16,.041,.041,.041,.041, 218
03/18/2020,06:17,.041,.041,.041,.041, 431
03/18/2020,06:31,.041,.041,.041,.041, 93711
03/19/2020,00:37,.041,.041,.041,.041, 4486
03/19/2020,02:18,.041,.041,.036,.036, 873788
03/19/2020,02:36,.035,.035,.033,.033, 500000
03/19/2020,02:37,.033,.033,.033,.033, 7740
03/19/2020,02:43,.035,.035,.035,.035, 15000
03/19/2020,03:45,.04,.04,.03,.03, 520119
03/19/2020,04:01,.03,.03,.03,.03, 6093
03/19/2020,04:09,.03,.03,.03,.03, 30000
03/19/2020,04:10,.03,.03,.03,.03, 142000
03/19/2020,04:52,.03,.03,.03,.03, 101348
03/19/2020,04:55,.03,.03,.03,.03, 8800
03/19/2020,05:02,.03,.03,.03,.03, 30000
03/19/2020,05:22,.03,.03,.03,.03, 114133
03/19/2020,05:28,.029,.03,.029,.03, 70679
03/19/2020,05:32,.03,.03,.03,.03, 142172
03/19/2020,05:32,.031,.031,.03,.03, 128276
03/19/2020,05:35,.03,.03,.03,.03, 80000
03/19/2020,05:37,.03,.03,.03,.03, 58000
03/19/2020,05:56,.03,.03,.03,.03, 281133
03/19/2020,06:05,.04,.04,.04,.04, 920
03/20/2020,00:46,.041,.041,.041,.041, 20000
03/20/2020,01:04,.041,.041,.041,.041, 2202
03/20/2020,01:08,.041,.041,.04,.04, 100000
03/20/2020,01:09,.042,.042,.042,.042, 4000
03/20/2020,01:13,.043,.043,.043,.043, 4000
03/20/2020,01:16,.045,.045,.045,.045, 67428
03/20/2020,01:53,.045,.045,.045,.045, 40000
03/20/2020,01:56,.045,.045,.045,.045, 7672
03/20/2020,02:17,.046,.046,.046,.046, 3724
03/20/2020,02:35,.05,.05,.05,.05, 252328
03/20/2020,03:01,.049,.05,.049,.05, 28000
03/20/2020,03:44,.046,.046,.046,.046, 100000
03/20/2020,03:55,.046,.046,.045,.045, 125503
03/20/2020,04:10,.045,.045,.045,.045, 102640
03/20/2020,05:01,.042,.042,.04,.04, 161037
03/20/2020,05:42,.037,.037,.037,.037, 10000
03/20/2020,05:42,.036,.036,.035,.035, 515000
03/20/2020,05:52,.035,.035,.035,.035, 7371
03/20/2020,05:59,.04,.04,.04,.04, 17456
03/20/2020,06:08,.04,.04,.04,.04, 1586
03/20/2020,06:13,.04,.04,.04,.04, 75900
03/20/2020,06:32,.038,.038,.038,.038, 59
03/23/2020,00:29,.035,.035,.035,.035, 3000
03/23/2020,00:30,.035,.035,.035,.035, 3000
03/23/2020,00:40,.035,.035,.035,.035, 25000
03/23/2020,00:59,.035,.035,.035,.035, 80000
03/23/2020,01:11,.038,.038,.038,.038, 5377
03/23/2020,01:35,.038,.038,.038,.038, 60000
03/23/2020,01:45,.04,.04,.04,.04, 105000
03/23/2020,01:52,.04,.04,.04,.04, 12500
03/23/2020,01:57,.038,.038,.035,.035, 157000
03/23/2020,03:53,.035,.035,.035,.035, 506
03/23/2020,04:46,.035,.035,.035,.035, 1980
03/23/2020,04:53,.035,.038,.035,.038, 49474
03/23/2020,05:53,.035,.035,.034,.034, 2
03/23/2020,06:08,.034,.034,.034,.034, 1
03/23/2020,06:16,.034,.034,.034,.034, 1
03/23/2020,06:18,.034,.034,.034,.034, 17045
03/23/2020,06:32,.034,.034,.034,.034, 8
03/24/2020,00:29,.035,.035,.035,.035, 230000
03/24/2020,00:40,.034,.034,.034,.034, 6800
03/24/2020,01:12,.035,.035,.035,.035, 85144
03/24/2020,01:14,.035,.035,.035,.035, 98801
03/24/2020,01:18,.035,.035,.035,.035, 314126
03/24/2020,01:26,.035,.035,.035,.035, 235874
03/24/2020,01:52,.035,.035,.035,.035, 20000
03/24/2020,01:58,.034,.034,.033,.033, 115000
03/24/2020,02:00,.032,.032,.03,.03, 148888
03/24/2020,02:15,.03,.03,.03,.03, 1616
03/24/2020,04:14,.031,.031,.031,.031, 55106
03/24/2020,04:20,.032,.032,.032,.032, 55070
03/24/2020,04:21,.032,.032,.032,.032, 416930
03/24/2020,04:24,.033,.033,.033,.033, 44700
03/24/2020,04:40,.034,.034,.034,.034, 10340
03/24/2020,05:20,.036,.036,.036,.036, 35000
03/24/2020,05:40,.037,.037,.037,.037, 6551
03/24/2020,06:31,.038,.038,.038,.038, 32764
03/25/2020,00:35,.039,.039,.039,.039, 70858
03/25/2020,01:01,.04,.04,.04,.04, 500000
03/25/2020,01:03,.04,.04,.04,.04, 76582
03/25/2020,01:05,.044,.044,.044,.044, 15100
03/25/2020,01:24,.045,.045,.044,.044, 800000
03/25/2020,01:26,.044,.044,.044,.044, 9369
03/25/2020,01:29,.05,.05,.05,.05, 9694
03/25/2020,01:36,.05,.05,.05,.05, 200000
03/25/2020,03:12,.052,.052,.052,.052, 10000
03/25/2020,03:51,.058,.058,.058,.058, 646
03/25/2020,04:06,.052,.052,.05,.05, 67860
03/25/2020,04:33,.05,.05,.05,.05, 130
03/25/2020,05:05,.05,.05,.044,.044, 29000
03/25/2020,05:18,.044,.044,.044,.044, 230
03/25/2020,05:29,.044,.044,.04,.04, 7419
03/25/2020,05:38,.039,.039,.039,.039, 249992
03/25/2020,05:54,.039,.039,.039,.039, 53846
03/25/2020,06:17,.039,.039,.039,.039, 8
03/26/2020,01:05,.04,.04,.04,.04, 50000
03/26/2020,01:07,.04,.04,.04,.04, 12500
03/26/2020,01:09,.04,.04,.04,.04, 40000
03/26/2020,01:12,.04,.04,.04,.04, 42500
03/26/2020,01:15,.04,.04,.04,.04, 15720
03/26/2020,01:31,.04,.04,.04,.04, 41000
03/26/2020,01:41,.04,.04,.037,.037, 24900
03/26/2020,02:12,.037,.037,.037,.037, 7194
03/26/2020,05:02,.04,.04,.04,.04, 5448
03/26/2020,05:34,.045,.045,.045,.045, 110000
03/26/2020,05:45,.05,.05,.05,.05, 50880
03/26/2020,06:01,.05,.05,.05,.05, 120
03/26/2020,06:14,.05,.05,.046,.046, 9917
03/27/2020,00:29,.05,.05,.048,.048, 200000
03/27/2020,00:40,.049,.05,.049,.05, 50000
03/27/2020,00:41,.046,.046,.046,.046, 2000
03/27/2020,00:53,.048,.048,.048,.048, 100000
03/27/2020,01:11,.05,.05,.05,.05, 15701
03/27/2020,01:42,.046,.046,.046,.046, 81
03/27/2020,02:00,.049,.049,.049,.049, 143142
03/27/2020,02:13,.049,.049,.046,.046, 110000
03/27/2020,02:36,.046,.046,.046,.046, 27380
03/27/2020,02:56,.046,.046,.046,.046, 33447
03/27/2020,03:11,.046,.046,.046,.046, 16553
03/27/2020,03:11,.046,.046,.046,.046, 15552
03/27/2020,03:40,.046,.046,.046,.046, 17895
03/27/2020,04:13,.046,.046,.046,.046, 196297
03/27/2020,04:44,.046,.046,.046,.046, 3803
03/27/2020,05:13,.046,.046,.046,.046, 100000
03/30/2020,01:30,.045,.045,.045,.045, 440000
03/30/2020,01:40,.045,.045,.045,.045, 110000
03/30/2020,02:10,.047,.047,.046,.046, 60000
03/30/2020,02:40,.046,.046,.046,.046, 208819
03/30/2020,02:47,.046,.046,.046,.046, 152425
03/30/2020,02:56,.046,.046,.046,.046, 7150
03/30/2020,03:25,.05,.05,.05,.05, 9850
03/30/2020,03:40,.048,.048,.048,.048, 14000
03/30/2020,03:47,.046,.046,.046,.046, 190425
03/30/2020,03:49,.045,.045,.045,.045, 25000
03/30/2020,03:56,.046,.046,.046,.046, 94907
03/30/2020,04:20,.046,.046,.046,.046, 25397
03/30/2020,04:33,.046,.046,.046,.046, 59011
03/30/2020,04:40,.046,.046,.046,.046, 18865
03/30/2020,04:56,.046,.046,.046,.046, 86524
03/30/2020,05:02,.046,.047,.046,.047, 133116
03/30/2020,05:05,.046,.046,.046,.046, 39211
03/30/2020,05:18,.046,.046,.046,.046, 25829
03/30/2020,05:51,.046,.046,.046,.046, 27344
03/30/2020,06:06,.046,.046,.046,.046, 28416
03/30/2020,06:28,.046,.046,.046,.046, 44365
03/30/2020,06:47,.046,.047,.046,.046, 106840
03/30/2020,06:49,.046,.047,.046,.047, 35972
03/30/2020,07:06,.05,.05,.049,.049, 240920
03/30/2020,07:11,.048,.048,.048,.048, 18406
03/30/2020,07:19,.049,.049,.049,.049, 22158
03/30/2020,07:20,.049,.049,.048,.048, 110868
03/30/2020,07:31,.048,.048,.048,.048, 90071
03/31/2020,01:38,.051,.051,.051,.051, 11390
03/31/2020,02:46,.051,.051,.051,.051, 36000
03/31/2020,02:49,.051,.051,.051,.051, 783
03/31/2020,03:31,.052,.052,.052,.052, 10000
03/31/2020,03:32,.059,.059,.059,.059, 50000
03/31/2020,03:36,.06,.06,.06,.06, 20
03/31/2020,04:20,.056,.056,.056,.056, 50000
03/31/2020,04:43,.051,.051,.051,.051, 28000
03/31/2020,05:01,.055,.055,.055,.055, 63195
03/31/2020,05:07,.055,.055,.055,.055, 35000
03/31/2020,05:17,.058,.058,.058,.058, 1805
03/31/2020,05:30,.058,.058,.058,.058, 37395
03/31/2020,05:36,.055,.055,.055,.055, 62605
03/31/2020,06:38,.052,.052,.052,.052, 55000
03/31/2020,06:49,.051,.051,.051,.051, 6466
03/31/2020,07:10,.051,.051,.051,.051, 12173