File: data/202002_Sydney_TGA_NoExpiry.txt
02/03/2020,00:45,.225,.225,.225,.225, 34
02/03/2020,00:45,.225,.23,.225,.23, 4957
02/03/2020,01:52,.225,.225,.22,.225, 4421
02/03/2020,02:13,.225,.225,.225,.225, 3
02/03/2020,02:14,.225,.225,.225,.225, 30
02/03/2020,02:17,.225,.225,.225,.225, 30
02/03/2020,02:47,.22,.22,.22,.22, 56354
02/03/2020,03:28,.215,.215,.215,.215, 2787
02/04/2020,02:24,.215,.215,.21,.21, 119434
02/04/2020,02:24,.21,.215,.21,.215, 15120
02/04/2020,02:27,.215,.215,.215,.215, 28
02/04/2020,02:30,.215,.215,.215,.215, 32
02/04/2020,02:33,.215,.215,.215,.215, 28
02/04/2020,02:34,.215,.215,.215,.215, 9
02/04/2020,02:35,.215,.215,.215,.215, 10
02/04/2020,02:36,.215,.215,.215,.215, 9
02/04/2020,02:37,.215,.215,.215,.215, 4
02/04/2020,02:54,.218,.218,.212,.212, 98
02/04/2020,02:55,.212,.212,.212,.212, 26
02/04/2020,02:58,.212,.212,.212,.212, 22
02/04/2020,03:01,.212,.212,.212,.212, 27
02/04/2020,03:03,.212,.212,.212,.212, 23
02/04/2020,03:06,.212,.212,.212,.212, 26
02/04/2020,03:07,.212,.215,.212,.215, 49396
02/04/2020,03:08,.22,.22,.22,.22, 45
02/04/2020,03:09,.22,.22,.22,.22, 8
02/04/2020,03:10,.22,.22,.22,.22, 8
02/04/2020,03:11,.22,.22,.22,.22, 9
02/04/2020,03:12,.22,.22,.22,.22, 9
02/04/2020,03:13,.22,.22,.22,.22, 8
02/04/2020,03:14,.22,.22,.22,.22, 9
02/04/2020,03:15,.22,.22,.22,.22, 12
02/04/2020,03:16,.22,.22,.22,.22, 4
02/04/2020,03:17,.22,.22,.22,.22, 9
02/04/2020,03:18,.22,.22,.22,.22, 8
02/04/2020,03:19,.22,.22,.22,.22, 9
02/04/2020,03:20,.22,.22,.22,.22, 8
02/04/2020,03:21,.22,.22,.22,.22, 11
02/04/2020,03:22,.22,.22,.22,.22, 8
02/04/2020,03:22,.22,.22,.22,.22, 5
02/04/2020,03:25,.22,.22,.22,.22, 24
02/04/2020,03:29,.22,.22,.22,.22, 25
02/04/2020,03:32,.22,.22,.22,.22, 24
02/04/2020,03:33,.22,.22,.22,.22, 13
02/04/2020,03:34,.22,.22,.22,.22, 8
02/04/2020,03:35,.22,.22,.22,.22, 8
02/04/2020,03:36,.22,.22,.22,.22, 8
02/04/2020,03:37,.22,.22,.22,.22, 8
02/04/2020,03:38,.22,.22,.22,.22, 8
02/04/2020,03:39,.22,.22,.22,.22, 8
02/04/2020,03:40,.22,.22,.22,.22, 8
02/04/2020,03:41,.22,.22,.22,.22, 7
02/04/2020,03:42,.22,.22,.22,.22, 8
02/04/2020,03:43,.22,.22,.22,.22, 4
02/04/2020,03:46,.22,.22,.22,.22, 24
02/04/2020,03:50,.22,.22,.22,.22, 34
02/04/2020,03:53,.22,.22,.22,.22, 24
02/04/2020,03:54,.22,.22,.22,.22, 8
02/04/2020,03:55,.22,.22,.22,.22, 7
02/04/2020,03:56,.22,.22,.22,.22, 8
02/04/2020,03:57,.22,.22,.22,.22, 8
02/04/2020,03:58,.22,.22,.22,.22, 8
02/04/2020,03:59,.22,.22,.22,.22, 9
02/04/2020,04:00,.22,.22,.22,.22, 4
02/04/2020,04:01,.22,.22,.22,.22, 8
02/04/2020,04:02,.22,.22,.22,.22, 8
02/04/2020,04:02,.22,.22,.22,.22, 4
02/04/2020,04:06,.22,.22,.22,.22, 28
02/04/2020,04:10,.22,.22,.22,.22, 28
02/04/2020,04:13,.22,.22,.22,.22, 29
02/04/2020,04:13,.22,.22,.22,.22, 1
02/04/2020,04:17,.22,.22,.22,.22, 28
02/04/2020,04:20,.22,.22,.22,.22, 28
02/04/2020,04:23,.22,.22,.22,.22, 24
02/04/2020,04:24,.22,.22,.22,.22, 5
02/04/2020,04:25,.22,.22,.22,.22, 8
02/04/2020,04:26,.22,.22,.22,.22, 8
02/04/2020,04:27,.22,.22,.22,.22, 9
02/04/2020,04:28,.22,.22,.22,.22, 11
02/04/2020,04:29,.22,.22,.22,.22, 8
02/04/2020,04:30,.22,.22,.22,.22, 8
02/04/2020,04:31,.22,.22,.22,.22, 9
02/04/2020,04:32,.22,.22,.22,.22, 8
02/04/2020,04:35,.22,.22,.22,.22, 25
02/04/2020,04:38,.22,.22,.22,.22, 26
02/04/2020,04:41,.22,.22,.22,.22, 25
02/04/2020,04:43,.22,.22,.22,.22, 13
02/04/2020,04:44,.22,.22,.22,.22, 8
02/04/2020,04:45,.22,.22,.22,.22, 9
02/04/2020,04:46,.22,.22,.22,.22, 9
02/04/2020,04:47,.22,.22,.22,.22, 11
02/04/2020,04:48,.22,.22,.22,.22, 8
02/04/2020,04:49,.22,.22,.22,.22, 9
02/04/2020,04:50,.22,.22,.22,.22, 8
02/04/2020,04:51,.22,.22,.22,.22, 9
02/04/2020,04:52,.22,.22,.22,.22, 8
02/04/2020,04:53,.22,.22,.22,.22, 8
02/04/2020,04:54,.22,.22,.22,.22, 10
02/04/2020,04:55,.22,.22,.22,.22, 8
02/04/2020,04:56,.22,.22,.22,.22, 9
02/04/2020,04:57,.22,.22,.22,.22, 9
02/04/2020,04:58,.22,.22,.22,.22, 8
02/04/2020,04:59,.22,.22,.22,.22, 10
02/04/2020,05:00,.22,.22,.22,.22, 8
02/04/2020,05:01,.22,.22,.22,.22, 9
02/04/2020,05:02,.22,.22,.22,.22, 9
02/04/2020,05:02,.22,.22,.22,.22, 4
02/04/2020,05:05,.22,.22,.22,.22, 28
02/04/2020,05:08,.22,.22,.22,.22, 23
02/04/2020,05:11,.22,.22,.22,.22, 24
02/04/2020,05:13,.22,.22,.22,.22, 23
02/04/2020,05:15,.22,.22,.22,.22, 23
02/04/2020,05:18,.22,.22,.22,.22, 23
02/04/2020,05:21,.22,.22,.22,.22, 25
02/04/2020,05:23,.22,.22,.22,.22, 23
02/04/2020,05:26,.22,.22,.22,.22, 25
02/04/2020,05:28,.22,.22,.22,.22, 24
02/04/2020,05:31,.22,.22,.22,.22, 26
02/04/2020,05:33,.22,.22,.22,.22, 21
02/04/2020,05:34,.22,.22,.22,.22, 10
02/04/2020,05:35,.22,.22,.22,.22, 11
02/04/2020,05:36,.22,.22,.22,.22, 10
02/04/2020,05:37,.22,.22,.22,.22, 9
02/04/2020,05:38,.22,.22,.22,.22, 11
02/04/2020,05:39,.22,.22,.22,.22, 11
02/04/2020,05:40,.22,.22,.22,.22, 10
02/04/2020,05:41,.22,.22,.22,.22, 10
02/04/2020,05:42,.22,.22,.22,.22, 9
02/04/2020,05:43,.22,.22,.22,.22, 6
02/04/2020,05:45,.22,.22,.22,.22, 26
02/04/2020,05:48,.22,.22,.22,.22, 28
02/04/2020,05:50,.22,.22,.22,.22, 26
02/04/2020,05:52,.22,.22,.22,.22, 22
02/04/2020,05:54,.22,.22,.22,.22, 24
02/04/2020,05:56,.22,.22,.22,.22, 22
02/04/2020,05:58,.22,.22,.22,.22, 24
02/04/2020,06:00,.22,.22,.22,.22, 23
02/04/2020,06:02,.22,.22,.22,.22, 27
02/04/2020,06:03,.22,.22,.22,.22, 13
02/04/2020,06:04,.22,.22,.22,.22, 13
02/04/2020,06:05,.22,.22,.22,.22, 14
02/04/2020,06:06,.22,.22,.22,.22, 13
02/04/2020,06:07,.22,.22,.22,.22, 16
02/04/2020,06:08,.22,.22,.22,.22, 14
02/04/2020,06:09,.22,.22,.22,.22, 16
02/04/2020,06:10,.22,.22,.22,.22, 15
02/04/2020,06:11,.22,.22,.22,.22, 16
02/04/2020,06:12,.22,.22,.22,.22, 19
02/04/2020,06:13,.22,.22,.22,.22, 8
02/04/2020,06:14,.22,.22,.22,.22, 26
02/04/2020,06:16,.22,.22,.22,.22, 28
02/04/2020,06:17,.22,.22,.22,.22, 19
02/04/2020,06:18,.22,.22,.22,.22, 19
02/04/2020,06:19,.22,.22,.22,.22, 51
02/05/2020,01:05,.215,.22,.215,.22, 3333
02/05/2020,01:50,.22,.22,.22,.22, 35
02/05/2020,02:29,.215,.22,.215,.22, 30676
02/05/2020,03:02,.215,.22,.21,.22, 61018
02/05/2020,03:05,.22,.22,.22,.22, 1485
02/05/2020,03:11,.22,.22,.22,.22, 22568
02/06/2020,00:29,.22,.22,.22,.22, 1606
02/06/2020,01:30,.215,.215,.21,.21, 103050
02/06/2020,01:49,.212,.212,.212,.212, 215
02/06/2020,01:51,.21,.21,.21,.21, 9123
02/06/2020,02:48,.212,.215,.21,.21, 33367
02/06/2020,03:26,.215,.215,.215,.215, 39308
02/06/2020,03:47,.215,.215,.215,.215, 2775
02/06/2020,04:12,.218,.218,.218,.218, 294
02/06/2020,05:10,.218,.218,.218,.218, 320
02/06/2020,05:53,.218,.218,.21,.21, 103180
02/06/2020,05:55,.215,.215,.215,.215, 4000
02/06/2020,05:58,.215,.215,.215,.215, 6754
02/07/2020,00:30,.215,.215,.215,.215, 1299
02/07/2020,01:11,.215,.215,.215,.215, 5443
02/07/2020,01:29,.215,.215,.215,.215, 407
02/07/2020,01:48,.215,.215,.215,.215, 4000
02/07/2020,01:58,.215,.215,.215,.215, 434
02/07/2020,02:23,.218,.218,.215,.215, 393
02/07/2020,02:49,.218,.218,.215,.215, 4585
02/07/2020,02:51,.218,.218,.215,.215, 428
02/07/2020,03:12,.218,.218,.215,.215, 2439
02/07/2020,03:16,.218,.218,.215,.215, 378
02/07/2020,03:43,.218,.218,.215,.215, 418
02/07/2020,04:06,.218,.218,.215,.215, 375
02/07/2020,04:33,.215,.215,.215,.215, 409
02/07/2020,04:54,.215,.215,.215,.215, 359
02/07/2020,05:20,.215,.215,.215,.215, 399
02/07/2020,05:39,.218,.218,.215,.215, 329
02/07/2020,06:06,.22,.22,.22,.22, 13000
02/07/2020,06:31,.22,.22,.22,.22, 929
02/10/2020,00:30,.225,.225,.225,.225, 11235
02/10/2020,00:48,.22,.22,.22,.22, 6732
02/10/2020,00:56,.22,.22,.22,.22, 343
02/10/2020,01:30,.22,.22,.215,.215, 243171
02/10/2020,01:58,.215,.215,.215,.215, 850
02/10/2020,04:02,.215,.215,.215,.215, 5587
02/11/2020,02:17,.215,.215,.215,.215, 2064
02/11/2020,02:21,.215,.215,.215,.215, 1176
02/11/2020,02:25,.215,.215,.215,.215, 11644
02/11/2020,02:25,.215,.215,.215,.215, 75000
02/11/2020,02:29,.215,.215,.215,.215, 2000
02/11/2020,05:51,.215,.215,.215,.215, 5105
02/11/2020,06:20,.215,.215,.215,.215, 553
02/13/2020,00:30,.21,.21,.21,.21, 332
02/13/2020,01:00,.21,.21,.21,.21, 872
02/13/2020,02:13,.21,.21,.21,.21, 100869
02/13/2020,03:57,.21,.21,.21,.21, 700
02/13/2020,04:47,.205,.205,.205,.205, 4281
02/13/2020,06:02,.205,.205,.205,.205, 1038
02/14/2020,00:33,.205,.205,.205,.205, 573
02/14/2020,00:52,.205,.205,.205,.205, 50000
02/14/2020,02:07,.205,.205,.205,.205, 99659
02/14/2020,02:21,.205,.205,.205,.205, 2255
02/17/2020,00:30,.2,.2,.2,.2, 3891
02/17/2020,01:01,.2,.2,.2,.2, 47761
02/17/2020,01:13,.2,.2,.2,.2, 19064
02/17/2020,02:32,.2,.2,.2,.2, 24588
02/17/2020,02:58,.2,.2,.2,.2, 2051
02/17/2020,02:59,.2,.2,.2,.2, 12000
02/17/2020,06:00,.195,.195,.195,.195, 132707
02/17/2020,06:31,.195,.195,.195,.195, 51677
02/18/2020,01:52,.195,.195,.195,.195, 4000
02/18/2020,02:13,.195,.2,.195,.2, 10181
02/18/2020,02:38,.2,.2,.2,.2, 211
02/18/2020,02:58,.2,.2,.2,.2, 133
02/18/2020,04:09,.2,.2,.2,.2, 25357
02/18/2020,04:29,.2,.2,.2,.2, 183
02/18/2020,04:44,.2,.2,.2,.2, 219
02/18/2020,05:07,.2,.2,.2,.2, 211
02/18/2020,05:24,.2,.2,.2,.2, 172
02/18/2020,05:43,.2,.2,.2,.2, 154
02/18/2020,05:54,.2,.2,.2,.2, 205
02/18/2020,06:08,.2,.2,.2,.2, 117
02/18/2020,06:15,.2,.2,.2,.2, 50
02/18/2020,06:18,.2,.2,.2,.2, 2
02/18/2020,06:19,.2,.2,.2,.2, 30
02/18/2020,06:31,.195,.195,.195,.195, 4994
02/19/2020,00:52,.2,.2,.2,.2, 21
02/19/2020,01:44,.2,.2,.2,.2, 24
02/19/2020,01:53,.2,.2,.2,.2, 23
02/19/2020,02:12,.2,.2,.2,.2, 22
02/19/2020,02:21,.2,.2,.2,.2, 23
02/19/2020,02:57,.2,.2,.2,.2, 36
02/19/2020,03:08,.2,.2,.2,.2, 23
02/19/2020,03:21,.2,.2,.2,.2, 22
02/19/2020,04:02,.2,.2,.2,.2, 24
02/19/2020,04:08,.2,.2,.2,.2, 67038
02/19/2020,04:09,.2,.2,.2,.2, 9186
02/19/2020,04:32,.2,.2,.2,.2, 40004
02/19/2020,05:11,.2,.2,.2,.2, 23
02/19/2020,05:44,.2,.2,.2,.2, 17
02/19/2020,06:09,.2,.2,.2,.2, 65
02/19/2020,06:15,.2,.2,.2,.2, 27
02/19/2020,06:31,.2,.2,.2,.2, 147
02/20/2020,01:04,.195,.195,.195,.195, 1000
02/20/2020,02:11,.195,.195,.195,.195, 3498
02/20/2020,03:13,.195,.195,.195,.195, 5180
02/20/2020,03:18,.195,.195,.195,.195, 111099
02/20/2020,03:25,.195,.195,.195,.195, 14265
02/20/2020,05:02,.195,.195,.195,.195, 6770
02/20/2020,05:53,.195,.195,.195,.195, 9005
02/21/2020,00:30,.195,.195,.195,.195, 13604
02/21/2020,01:02,.197,.197,.195,.195, 34793
02/21/2020,01:19,.2,.2,.2,.2, 6
02/21/2020,01:47,.2,.2,.2,.2, 5
02/21/2020,01:48,.2,.2,.2,.2, 62732
02/21/2020,01:53,.2,.2,.2,.2, 14207
02/21/2020,02:07,.197,.197,.195,.195, 4360
02/21/2020,02:27,.2,.2,.2,.2, 5
02/21/2020,03:06,.2,.2,.2,.2, 6
02/21/2020,03:41,.2,.2,.2,.2, 5
02/21/2020,04:21,.197,.197,.195,.195, 44819
02/21/2020,04:58,.19,.19,.19,.19, 44283
02/21/2020,05:33,.192,.192,.192,.192, 1
02/21/2020,05:37,.19,.19,.185,.185, 24554
02/21/2020,05:40,.185,.185,.185,.185, 4600
02/21/2020,06:11,.19,.19,.19,.19, 5
02/21/2020,06:12,.19,.19,.19,.19, 4
02/21/2020,06:13,.19,.19,.19,.19, 4
02/21/2020,06:14,.19,.19,.19,.19, 3
02/21/2020,06:15,.19,.19,.19,.19, 4
02/21/2020,06:16,.19,.19,.19,.19, 4
02/21/2020,06:17,.19,.19,.19,.19, 5
02/21/2020,06:18,.19,.19,.19,.19, 4
02/21/2020,06:19,.19,.19,.19,.19, 4
02/21/2020,06:19,.19,.19,.19,.19, 6
02/21/2020,06:31,.19,.19,.19,.19, 168
02/24/2020,00:29,.185,.185,.185,.185, 3000
02/24/2020,01:04,.185,.185,.17,.17, 122104
02/24/2020,04:00,.185,.185,.185,.185, 61528
02/24/2020,05:08,.185,.185,.185,.185, 25700
02/24/2020,05:50,.188,.188,.185,.185, 2900
02/24/2020,06:16,.19,.19,.19,.19, 1486
02/24/2020,06:18,.195,.195,.195,.195, 10
02/24/2020,06:31,.195,.195,.195,.195, 72
02/25/2020,00:29,.2,.2,.2,.2, 5000
02/25/2020,00:41,.195,.195,.195,.195, 23887
02/25/2020,00:52,.195,.195,.195,.195, 2820
02/25/2020,01:45,.2,.2,.2,.2, 31625
02/25/2020,01:47,.2,.2,.2,.2, 40000
02/25/2020,02:51,.195,.195,.195,.195, 32000
02/25/2020,03:28,.19,.19,.19,.19, 12093
02/25/2020,03:41,.192,.195,.192,.195, 22337
02/25/2020,04:23,.195,.195,.195,.195, 17287
02/25/2020,04:56,.195,.195,.195,.195, 8800
02/25/2020,05:22,.195,.195,.195,.195, 11250
02/25/2020,06:32,.2,.2,.2,.2, 201
02/26/2020,01:09,.195,.195,.195,.195, 14607
02/26/2020,01:15,.195,.195,.195,.195, 54170
02/26/2020,01:21,.195,.195,.195,.195, 14607
02/26/2020,02:51,.195,.195,.195,.195, 5000
02/26/2020,03:37,.195,.195,.195,.195, 12800
02/26/2020,03:59,.195,.195,.195,.195, 4400
02/26/2020,04:21,.195,.195,.195,.195, 4039
02/26/2020,04:30,.195,.195,.195,.195, 21420
02/26/2020,05:36,.195,.195,.195,.195, 37366
02/26/2020,05:53,.19,.19,.19,.19, 1154
02/26/2020,05:55,.19,.19,.19,.19, 1500
02/26/2020,06:14,.185,.185,.185,.185, 2000
02/26/2020,06:31,.19,.19,.19,.19, 202